Folder: CuNb/diff_X/plate_collimator_faisceau_direct

File: FaisceauDirect_deuxTheta_fente200um_att90.csv
[Measurement conditions]
Sample identification,
Comment - 1,"Configuration=2018HybrideTripleAxis, Owner=User-1, Creation date=19/10/2018 14:17:25"
Comment - 2,"Goniometer=PW3050/20 HR  (Theta/2Theta); Minimum step size 2Theta:0.001; Minimum step size Omega:0.001"
Comment - 3,"Sample stage=MRD Cradle; Minimum step size Phi:0.01; Minimum step size Psi:0.01; Minimum step size X:0.01; Minimum step size Y:0.01; Minimum step size Z:0.001"
Comment - 4,"Diffractometer system=XPERT-MPD"
Comment - 5,"Measurement program=Manual, Owner=stephanie, Creation date=29/04/2019 14:13:33"
Comment - 6,"Fine Calibration Offset for 2Theta = 2.919 deg"
Comment - 7,"Fine Calibration Offset for Omega = 2.880 deg"
Anode material,Cu
K-Alpha1 wavelength,1.5406
K-Alpha2 wavelength,1.54443
Ratio K-Alpha2/K-Alpha1,0.000
Monochromator used,YES
Generator voltage, 40
Tube current, 30
File date and time,29/avr./2019 14:38
Unit cell,
h k l, 0 0 0
Scan axis,2Theta
Scan range,-0.6950,0.6950
Scan step size,0.0100000
No. of points, 139
Scan type,CONTINUOUS
Omega,0.000
Phi,0.00
Psi,0.00
X,6.00
Y,35.00
Z,0.000
Time per step,1.00
[Scan points]
Angle,Intensity
-0.6900,1.0
-0.6800,2.0
-0.6700,2.0
-0.6600,2.0
-0.6500,0.0
-0.6400,3.0
-0.6300,0.0
-0.6200,2.0
-0.6100,3.0
-0.6000,2.0
-0.5900,1.0
-0.5800,4.0
-0.5700,2.0
-0.5600,2.0
-0.5500,1.0
-0.5400,0.0
-0.5300,0.0
-0.5200,2.0
-0.5100,3.0
-0.5000,2.0
-0.4900,2.0
-0.4800,3.0
-0.4700,3.0
-0.4600,4.0
-0.4500,4.0
-0.4400,2.0
-0.4300,7.0
-0.4200,5.0
-0.4100,5.0
-0.4000,8.0
-0.3900,9.0
-0.3800,8.0
-0.3700,12.0
-0.3600,8.0
-0.3500,13.0
-0.3400,9.0
-0.3300,9.0
-0.3200,22.0
-0.3100,39.0
-0.3000,31.0
-0.2900,46.0
-0.2800,194.0
-0.2700,1566.0
-0.2600,9404.0
-0.2500,25693.0
-0.2400,38628.0
-0.2300,41446.0
-0.2200,27676.0
-0.2100,10052.0
-0.2000,2071.0
-0.1900,799.0
-0.1800,3544.0
-0.1700,18789.0
-0.1600,49076.0
-0.1500,81471.0
-0.1400,103272.0
-0.1300,100296.0
-0.1200,80964.0
-0.1100,56384.0
-0.1000,31074.0
-0.0900,14558.0
-0.0800,21963.0
-0.0700,50528.0
-0.0600,84560.0
-0.0500,108514.0
-0.0400,117064.0
-0.0300,117847.0
-0.0200,116062.0
-0.0100,104435.0
0.0000,80702.0
0.0100,54676.0
0.0200,44280.0
0.0300,58409.0
0.0400,84327.0
0.0500,107719.0
0.0600,118707.0
0.0700,119200.0
0.0800,104558.0
0.0900,74085.0
0.1000,38849.0
0.1100,11792.0
0.1200,4628.0
0.1300,13389.0
0.1400,34446.0
0.1500,60590.0
0.1600,85537.0
0.1700,93915.0
0.1800,72596.0
0.1900,39136.0
0.2000,11707.0
0.2100,2022.0
0.2200,367.0
0.2300,209.0
0.2400,921.0
0.2500,3960.0
0.2600,5210.0
0.2700,1644.0
0.2800,211.0
0.2900,36.0
0.3000,14.0
0.3100,10.0
0.3200,14.0
0.3300,8.0
0.3400,9.0
0.3500,9.0
0.3600,5.0
0.3700,2.0
0.3800,4.0
0.3900,6.0
0.4000,9.0
0.4100,9.0
0.4200,9.0
0.4300,4.0
0.4400,2.0
0.4500,2.0
0.4600,3.0
0.4700,1.0
0.4800,0.0
0.4900,5.0
0.5000,1.0
0.5100,3.0
0.5200,6.0
0.5300,3.0
0.5400,1.0
0.5500,3.0
0.5600,2.0
0.5700,0.0
0.5800,2.0
0.5900,0.0
0.6000,1.0
0.6100,1.0
0.6200,0.0
0.6300,1.0
0.6400,1.0
0.6500,2.0
0.6600,2.0
0.6700,1.0
0.6800,1.0
0.6900,2.0

File: FaisceauDirect_deuxTheta_fente500um_att90.csv
[Measurement conditions]
Sample identification,
Comment - 1,"Configuration=2018HybrideTripleAxis, Owner=User-1, Creation date=19/10/2018 14:17:25"
Comment - 2,"Goniometer=PW3050/20 HR  (Theta/2Theta); Minimum step size 2Theta:0.001; Minimum step size Omega:0.001"
Comment - 3,"Sample stage=MRD Cradle; Minimum step size Phi:0.01; Minimum step size Psi:0.01; Minimum step size X:0.01; Minimum step size Y:0.01; Minimum step size Z:0.001"
Comment - 4,"Diffractometer system=XPERT-MPD"
Comment - 5,"Measurement program=Manual, Owner=stephanie, Creation date=29/04/2019 14:13:33"
Comment - 6,"Fine Calibration Offset for 2Theta = 2.919 deg"
Comment - 7,"Fine Calibration Offset for Omega = 2.880 deg"
Anode material,Cu
K-Alpha1 wavelength,1.5406
K-Alpha2 wavelength,1.54443
Ratio K-Alpha2/K-Alpha1,0.000
Monochromator used,YES
Generator voltage, 40
Tube current, 30
File date and time,29/avr./2019 14:44
Unit cell,
h k l, 0 0 0
Scan axis,2Theta
Scan range,-0.6950,0.6950
Scan step size,0.0100000
No. of points, 139
Scan type,CONTINUOUS
Omega,0.000
Phi,0.00
Psi,0.00
X,6.00
Y,35.00
Z,0.000
Time per step,1.00
[Scan points]
Angle,Intensity
-0.6900,5.0
-0.6800,0.0
-0.6700,4.0
-0.6600,1.0
-0.6500,1.0
-0.6400,2.0
-0.6300,1.0
-0.6200,4.0
-0.6100,2.0
-0.6000,6.0
-0.5900,3.0
-0.5800,0.0
-0.5700,0.0
-0.5600,8.0
-0.5500,5.0
-0.5400,6.0
-0.5300,5.0
-0.5200,6.0
-0.5100,3.0
-0.5000,3.0
-0.4900,6.0
-0.4800,4.0
-0.4700,6.0
-0.4600,7.0
-0.4500,4.0
-0.4400,10.0
-0.4300,14.0
-0.4200,6.0
-0.4100,5.0
-0.4000,13.0
-0.3900,11.0
-0.3800,9.0
-0.3700,18.0
-0.3600,17.0
-0.3500,14.0
-0.3400,14.0
-0.3300,24.0
-0.3200,23.0
-0.3100,30.0
-0.3000,96.0
-0.2900,657.0
-0.2800,4372.0
-0.2700,12427.0
-0.2600,21287.0
-0.2500,30642.0
-0.2400,40910.0
-0.2300,51382.0
-0.2200,60052.0
-0.2100,66616.0
-0.2000,63862.0
-0.1900,61189.0
-0.1800,69168.0
-0.1700,88249.0
-0.1600,109491.0
-0.1500,127131.0
-0.1400,140406.0
-0.1300,151459.0
-0.1200,158190.0
-0.1100,150171.0
-0.1000,146165.0
-0.0900,150713.0
-0.0800,157446.0
-0.0700,168026.0
-0.0600,181581.0
-0.0500,203592.0
-0.0400,225866.0
-0.0300,238619.0
-0.0200,234905.0
-0.0100,230182.0
0.0000,225239.0
0.0100,217776.0
0.0200,207940.0
0.0300,197735.0
0.0400,192710.0
0.0500,197371.0
0.0600,204113.0
0.0700,202407.0
0.0800,192376.0
0.0900,172059.0
0.1000,147046.0
0.1100,129802.0
0.1200,115972.0
0.1300,107971.0
0.1400,112574.0
0.1500,118546.0
0.1600,116011.0
0.1700,109968.0
0.1800,100797.0
0.1900,90304.0
0.2000,75738.0
0.2100,53699.0
0.2200,30063.0
0.2300,24402.0
0.2400,23853.0
0.2500,16918.0
0.2600,8800.0
0.2700,2277.0
0.2800,331.0
0.2900,45.0
0.3000,21.0
0.3100,16.0
0.3200,22.0
0.3300,14.0
0.3400,11.0
0.3500,10.0
0.3600,13.0
0.3700,11.0
0.3800,20.0
0.3900,6.0
0.4000,14.0
0.4100,12.0
0.4200,12.0
0.4300,10.0
0.4400,12.0
0.4500,12.0
0.4600,10.0
0.4700,8.0
0.4800,8.0
0.4900,9.0
0.5000,6.0
0.5100,4.0
0.5200,3.0
0.5300,4.0
0.5400,2.0
0.5500,7.0
0.5600,1.0
0.5700,4.0
0.5800,2.0
0.5900,2.0
0.6000,6.0
0.6100,6.0
0.6200,6.0
0.6300,2.0
0.6400,1.0
0.6500,3.0
0.6600,6.0
0.6700,3.0
0.6800,4.0
0.6900,6.0

File: FaisceauDirect_deuxTheta_fente1000um_att90.csv
[Measurement conditions]
Sample identification,
Comment - 1,"Configuration=2018HybrideTripleAxis, Owner=User-1, Creation date=19/10/2018 14:17:25"
Comment - 2,"Goniometer=PW3050/20 HR  (Theta/2Theta); Minimum step size 2Theta:0.001; Minimum step size Omega:0.001"
Comment - 3,"Sample stage=MRD Cradle; Minimum step size Phi:0.01; Minimum step size Psi:0.01; Minimum step size X:0.01; Minimum step size Y:0.01; Minimum step size Z:0.001"
Comment - 4,"Diffractometer system=XPERT-MPD"
Comment - 5,"Measurement program=Manual, Owner=stephanie, Creation date=29/04/2019 14:13:33"
Comment - 6,"Fine Calibration Offset for 2Theta = 2.919 deg"
Comment - 7,"Fine Calibration Offset for Omega = 2.880 deg"
Anode material,Cu
K-Alpha1 wavelength,1.5406
K-Alpha2 wavelength,1.54443
Ratio K-Alpha2/K-Alpha1,0.000
Monochromator used,YES
Generator voltage, 40
Tube current, 30
File date and time,29/avr./2019 14:50
Unit cell,
h k l, 0 0 0
Scan axis,2Theta
Scan range,-0.6950,0.6950
Scan step size,0.0100000
No. of points, 139
Scan type,CONTINUOUS
Omega,0.000
Phi,0.00
Psi,0.00
X,6.00
Y,35.00
Z,0.000
Time per step,1.00
[Scan points]
Angle,Intensity
-0.6900,6.0
-0.6800,4.0
-0.6700,8.0
-0.6600,2.0
-0.6500,6.0
-0.6400,9.0
-0.6300,4.0
-0.6200,5.0
-0.6100,5.0
-0.6000,5.0
-0.5900,7.0
-0.5800,11.0
-0.5700,4.0
-0.5600,11.0
-0.5500,6.0
-0.5400,7.0
-0.5300,12.0
-0.5200,11.0
-0.5100,8.0
-0.5000,7.0
-0.4900,11.0
-0.4800,10.0
-0.4700,16.0
-0.4600,14.0
-0.4500,12.0
-0.4400,8.0
-0.4300,14.0
-0.4200,18.0
-0.4100,18.0
-0.4000,5.0
-0.3900,27.0
-0.3800,24.0
-0.3700,18.0
-0.3600,16.0
-0.3500,25.0
-0.3400,31.0
-0.3300,34.0
-0.3200,36.0
-0.3100,53.0
-0.3000,232.0
-0.2900,1842.0
-0.2800,9393.0
-0.2700,24450.0
-0.2600,41138.0
-0.2500,52470.0
-0.2400,54579.0
-0.2300,71662.0
-0.2200,101842.0
-0.2100,128101.0
-0.2000,149602.0
-0.1900,170459.0
-0.1800,192138.0
-0.1700,212435.0
-0.1600,222458.0
-0.1500,220728.0
-0.1400,225175.0
-0.1300,238289.0
-0.1200,258479.0
-0.1100,289323.0
-0.1000,326147.0
-0.0900,356376.0
-0.0800,378606.0
-0.0700,388398.0
-0.0600,385895.0
-0.0500,391962.0
-0.0400,406172.0
-0.0300,422674.0
-0.0200,438033.0
-0.0100,450816.0
0.0000,456761.0
0.0100,466016.0
0.0200,468236.0
0.0300,446777.0
0.0400,411948.0
0.0500,383454.0
0.0600,361485.0
0.0700,340484.0
0.0800,320486.0
0.0900,306898.0
0.1000,310568.0
0.1100,308358.0
0.1200,297490.0
0.1300,282633.0
0.1400,262899.0
0.1500,229779.0
0.1600,190034.0
0.1700,156197.0
0.1800,140198.0
0.1900,140270.0
0.2000,135204.0
0.2100,119698.0
0.2200,101495.0
0.2300,82819.0
0.2400,64686.0
0.2500,44584.0
0.2600,23260.0
0.2700,5903.0
0.2800,725.0
0.2900,109.0
0.3000,48.0
0.3100,27.0
0.3200,39.0
0.3300,35.0
0.3400,23.0
0.3500,22.0
0.3600,19.0
0.3700,17.0
0.3800,22.0
0.3900,22.0
0.4000,17.0
0.4100,16.0
0.4200,22.0
0.4300,12.0
0.4400,20.0
0.4500,8.0
0.4600,15.0
0.4700,12.0
0.4800,12.0
0.4900,12.0
0.5000,4.0
0.5100,10.0
0.5200,10.0
0.5300,8.0
0.5400,10.0
0.5500,7.0
0.5600,6.0
0.5700,6.0
0.5800,9.0
0.5900,8.0
0.6000,5.0
0.6100,6.0
0.6200,5.0
0.6300,7.0
0.6400,6.0
0.6500,6.0
0.6600,4.0
0.6700,7.0
0.6800,7.0
0.6900,8.0